Folder: iAx/data

Note: README-iax.md
# Physics-informed neural networks (PINNs)

This workshop builds upon my blog post on PINNs: https://benmoseley.blog/my-research/so-what-is-a-physics-informed-neural-network/. 

Read the seminal PINN papers [here](https://ieeexplore.ieee.org/document/712178) and [here](https://www.sciencedirect.com/science/article/pii/S0021999118307125).

## Contenido.
- Introduccion
    - code a PINN, NR, ... from scratch in PyTorch, TensorFlow, Skitlern
- Inteligencia artificial | Artificial intelligence
    - Natural language processing
    - Visual perceptron
    - Automatic reasoning
    - Intelleigent robot
    - Automatic programing
    - Knowledge representation
    - ...
- Aprendisaje por amquina | Machine Learning 
    - Linear-Logistic regresion
    - Random Forest
    - K-Means
    - Decision trees
    - Principal componets analysis
    - Support vector machine
    - k-Nearest neighbor
    - ...
- Redes neuronales | [Neural Networking](https://sistemascomputacionaleseducacion.blogspot.com/2020/12/redes-neuronales.html)
    - Algoritmos MLP
    - ...
- Aprendisaje profundo | Deep Learning
    - Algoritmos RNN
    - Algoritmos DBN
    - Algoritmos GAN
    - Algoritmos CNN
    - ...
- Workshop goals: By the end of this workshop, you should be able to:
    - understand the different types of scientific tasks PINNs can be used for
    - understand in more detail how PINNs are trained and how to improve their convergence

## referencias.
- https://github.com/fsancho
- https://github.com/ChangZhouLab

File: concrete_data_2022.csv
S.No, Cement (kg/m3), Fly Ash (kg/m3), Water (kg/m3), Superplasticizer (kg/m3), Coarse Aggregate (kg/m3), Fine Aggregate (kg/m3), Age (Day), Compressive Strength (MPa)
1, 540, 0, 162, 2.5, 1040, 676, 28, 79.99
4, 380, 0, 228, 0, 932, 670, 90, 52.91
7, 380, 0, 228, 0, 932, 670, 270, 53.3
10, 475, 0, 228, 0, 932, 594, 90, 42.23
13, 475, 0, 228, 0, 932, 594, 365, 41.93
16, 531.3, 0, 141.8, 28.2, 852.1, 893.7, 3, 41.3
19, 531.3, 0, 141.8, 28.2, 852.1, 893.7, 56, 58.8
22, 222.4, 96.7, 189.3, 4.5, 967.1, 870.3, 14, 24.45
25, 222.4, 96.7, 189.3, 4.5, 967.1, 870.3, 100, 40.71
28, 233.8, 94.6, 197.9, 4.6, 947, 852.2, 28, 22.84
31, 194.7, 100.5, 165.6, 7.5, 1006.4, 905.9, 3, 12.45
34, 194.7, 100.5, 165.6, 7.5, 1006.4, 905.9, 56, 33.96
37, 190.7, 125.4, 162.1, 7.8, 1090, 804, 14, 21.06
40, 190.7, 125.4, 162.1, 7.8, 1090, 804, 100, 40.57
43, 212.1, 121.6, 180.3, 5.7, 1057.6, 779.3, 28, 24.9
46, 230, 118.3, 195.5, 4.6, 1029.4, 758.6, 3, 10.03
49, 230, 118.3, 195.5, 4.6, 1029.4, 758.6, 56, 31.54
52, 190.3, 125.2, 161.9, 9.9, 1088.1, 802.6, 14, 22.72
55, 190.3, 125.2, 161.9, 9.9, 1088.1, 802.6, 100, 40.39
58, 166.1, 163.3, 176.5, 4.5, 1058.6, 780.1, 28, 21.54
61, 229.7, 118.2, 195.2, 6.1, 1028.1, 757.6, 3, 13.36
64, 229.7, 118.2, 195.2, 6.1, 1028.1, 757.6, 56, 31.35
67, 238.1, 94.1, 186.7, 7, 949.9, 847, 14, 25.69
70, 238.1, 94.1, 186.7, 7, 949.9, 847, 100, 44.3
73, 250, 95.7, 187.4, 5.5, 956.9, 861.2, 28, 29.22
76, 212.5, 100.4, 159.3, 8.7, 1007.8, 903.6, 3, 13.54
79, 212.5, 100.4, 159.3, 8.7, 1007.8, 903.6, 56, 42.55
82, 212.6, 100.4, 159.4, 10.4, 1003.8, 903.8, 14, 25.37
85, 212.6, 100.4, 159.4, 10.4, 1003.8, 903.8, 100, 47.74
88, 212, 124.8, 159, 7.8, 1085.4, 799.5, 28, 38.5
91, 231.8, 121.6, 174, 6.7, 1056.4, 778.5, 3, 15.44
94, 231.8, 121.6, 174, 6.7, 1056.4, 778.5, 56, 42.7
97, 251.4, 118.3, 188.5, 5.8, 1028.4, 757.7, 14, 29.93
100, 251.4, 118.3, 188.5, 5.8, 1028.4, 757.7, 100, 43.58
103, 251.4, 118.3, 188.5, 6.4, 1028.4, 757.7, 28, 32.66
106, 181.4, 167, 169.6, 7.6, 1055.6, 777.8, 3, 13.62
109, 181.4, 167, 169.6, 7.6, 1055.6, 777.8, 56, 35.57
112, 290.4, 96.2, 168.1, 9.4, 961.2, 865, 14, 34.67
115, 290.4, 96.2, 168.1, 9.4, 961.2, 865, 100, 48.97
118, 277.1, 97.4, 160.6, 11.8, 973.9, 875.6, 28, 48.28
121, 295.7, 95.6, 171.5, 8.9, 955.1, 859.2, 3, 22.95
124, 295.7, 95.6, 171.5, 8.9, 955.1, 859.2, 56, 48.72
127, 251.8, 99.9, 146.1, 12.4, 1006, 899.8, 14, 33.36
130, 251.8, 99.9, 146.1, 12.4, 1006, 899.8, 100, 45.37
133, 249.1, 98.8, 158.1, 12.8, 987.8, 889, 28, 30.85
136, 252.3, 98.8, 146.3, 14.2, 987.8, 889, 3, 21.78
139, 252.3, 98.8, 146.3, 14.2, 987.8, 889, 56, 55.83
142, 246.8, 125.1, 143.3, 12, 1086.8, 800.9, 14, 42.22
145, 246.8, 125.1, 143.3, 12, 1086.8, 800.9, 100, 66.42
148, 275.1, 121.4, 159.5, 9.9, 1053.6, 777.5, 28, 51.33
151, 297.2, 117.5, 174.8, 9.5, 1022.8, 753.5, 3, 21.91
154, 297.2, 117.5, 174.8, 9.5, 1022.8, 753.5, 56, 51.96
157, 213.7, 174.7, 154.8, 10.2, 1053.5, 776.4, 14, 33.73
160, 213.7, 174.7, 154.8, 10.2, 1053.5, 776.4, 100, 50.08
163, 213.5, 174.2, 154.6, 11.7, 1052.3, 775.5, 28, 45.94
166, 218.9, 124.1, 158.5, 11.3, 1078.7, 794.9, 3, 15.34
169, 218.9, 124.1, 158.5, 11.3, 1078.7, 794.9, 56, 37.27
172, 376, 0, 214.6, 0, 1003.5, 762.4, 14, 25.62
175, 376, 0, 214.6, 0, 1003.5, 762.4, 100, 43.06
178, 505, 60, 195, 0, 1030, 630, 28, 64.02
181, 520, 0, 170, 5.2, 855, 855, 28, 60.28
184, 385, 136, 158, 20, 903, 768, 28, 55.55
187, 516, 0, 162, 8.3, 801, 802, 28, 41.37
190, 165, 143.6, 163.8, 0, 1005.6, 900.9, 3, 14.4
193, 213.5, 174.2, 159.2, 11.7, 1043.6, 771.9, 3, 15.61
196, 165, 143.6, 163.8, 0, 1005.6, 900.9, 14, 16.88
199, 213.5, 174.2, 159.2, 11.7, 1043.6, 771.9, 14, 29.59
202, 165, 143.6, 163.8, 0, 1005.6, 900.9, 28, 26.2
205, 213.5, 174.2, 159.2, 11.7, 1043.6, 771.9, 28, 44.64
208, 165, 143.6, 163.8, 0, 1005.6, 900.9, 56, 36.56
211, 213.5, 174.2, 159.2, 11.7, 1043.6, 771.9, 56, 51.26
214, 165, 143.6, 163.8, 0, 1005.6, 900.9, 100, 37.96
217, 213.5, 174.2, 159.2, 11.7, 1043.6, 771.9, 100, 52.96
220, 436, 0, 218, 0, 838.4, 719.7, 28, 23.85
223, 393, 0, 192, 0, 940.6, 785.6, 3, 19.2
226, 480, 0, 192, 0, 936.2, 712.2, 28, 43.94
229, 480, 0, 192, 0, 936.2, 712.2, 3, 24.4
232, 255, 0, 192, 0, 889.8, 945, 7, 10.22
235, 333, 0, 192, 0, 931.2, 842.6, 28, 31.97
238, 333, 0, 192, 0, 931.2, 842.6, 90, 41.68
241, 397, 0, 185.7, 0, 1040.6, 734.3, 28, 33.08
244, 397, 0, 185.7, 0, 1040.6, 734.3, 7, 25.45
247, 238.1, 0, 185.7, 0, 1118.8, 789.3, 28, 17.58
250, 339.2, 0, 185.7, 0, 1069.2, 754.3, 28, 31.9
253, 382.5, 0, 185.7, 0, 1047.8, 739.3, 28, 37.44
256, 339, 0, 197, 0, 968, 781, 7, 20.97
259, 339, 0, 197, 0, 968, 781, 90, 35.17
262, 236, 0, 194, 0, 968, 885, 3, 6.47
265, 236, 0, 194, 0, 968, 885, 90, 21.95
268, 277, 0, 191, 0, 968, 856, 14, 21.26
271, 277, 0, 191, 0, 968, 856, 90, 31.25
274, 254, 0, 198, 0, 968, 863, 3, 9.31
277, 254, 0, 198, 0, 968, 863, 365, 29.79
280, 307, 0, 193, 0, 968, 812, 3, 12.54
283, 236, 0, 193, 0, 968, 885, 7, 9.99
286, 225, 0, 181, 0, 1113, 833, 7, 11.17
289, 325, 0, 184, 0, 1063, 783, 28, 30.57
292, 300, 0, 184, 0, 1075, 795, 7, 15.58
295, 375, 0, 186, 0, 1038, 758, 28, 38.21
298, 250, 0, 182, 0, 1100, 820, 7, 12.73
301, 350, 0, 186, 0, 1050, 770, 28, 34.29
304, 310, 0, 192, 0, 1012, 830, 28, 27.83
307, 331, 0, 192, 0, 1025, 821, 3, 14.31
310, 331, 0, 192, 0, 1025, 821, 90, 37.91
313, 349, 0, 192, 0, 1056, 809, 7, 9.01
316, 349, 0, 192, 0, 1056, 809, 120, 40.86
319, 296, 0, 186, 0, 1090, 769, 7, 18.91
322, 480, 0, 192, 0, 936, 721, 28, 43.89
325, 281, 0, 186, 0, 1104, 774, 7, 14.5
328, 500, 0, 200, 0, 1125, 613, 3, 26.06
331, 500, 0, 200, 0, 1125, 613, 28, 44.09
334, 540, 0, 173, 0, 1125, 613, 28, 67.31
337, 540, 0, 173, 0, 1125, 613, 270, 74.17
340, 350, 0, 203, 0, 974, 775, 28, 27.34
343, 350, 0, 203, 0, 974, 775, 180, 32.72
346, 385, 0, 186, 0, 966, 763, 7, 23.22
349, 331, 0, 192, 0, 978, 825, 180, 39
352, 331, 0, 192, 0, 978, 825, 3, 13.52
355, 382, 0, 186, 0, 1111, 784, 7, 11.47
358, 339, 0, 185, 0, 1069, 754, 28, 31.84
361, 238, 0, 185, 0, 1118, 789, 28, 17.54
364, 296, 0, 192, 0, 1085, 765, 90, 29.39
367, 331, 0, 192, 0, 978, 825, 28, 31.45
370, 349, 0, 192, 0, 1047, 806, 28, 32.72
373, 349, 0, 192, 0, 1047, 806, 360, 42.13
376, 525, 0, 189, 0, 1125, 613, 180, 61.92
379, 500, 0, 200, 0, 1125, 613, 270, 55.16
382, 252, 0, 185, 0, 1111, 784, 28, 19.69
385, 393, 0, 192, 0, 940, 758, 28, 39.58
388, 382, 0, 185, 0, 1047, 739, 28, 37.42
391, 310, 0, 192, 0, 970, 850, 7, 14.99
394, 310, 0, 192, 0, 970, 850, 180, 37.33
397, 525, 0, 189, 0, 1125, 613, 7, 42.42
400, 525, 0, 189, 0, 1125, 613, 90, 58.78
403, 322, 0, 203, 0, 974, 800, 28, 25.18
406, 397, 0, 185, 0, 1040, 734, 28, 39.09
409, 522, 0, 146, 0, 896, 896, 28, 74.99
412, 305, 100, 196, 10, 959, 705, 28, 30.12
415, 298, 107, 186, 6, 879, 815, 28, 42.64
418, 164, 200, 181, 13, 849, 846, 28, 15.09
421, 298, 107, 210, 11, 880, 744, 28, 31.87
424, 296, 107, 221, 11, 819, 778, 28, 31.42
427, 148, 137, 158, 16, 1002, 830, 28, 17.95
430, 151, 185, 167, 16, 1074, 678, 28, 13.46
433, 145, 134, 181, 11, 979, 812, 28, 13.2
436, 148, 182, 181, 15, 839, 884, 28, 15.52
439, 313, 0, 178, 8, 1000, 822, 28, 25.1
442, 296, 106.7, 221.4, 10.5, 819.2, 778.4, 28, 31.42
445, 148.1, 136.6, 158.1, 16.1, 1001.8, 830.1, 28, 17.96
448, 150.7, 185.3, 166.7, 15.6, 1074.5, 678, 28, 13.46
451, 144.8, 133.6, 180.8, 11.1, 979.5, 811.5, 28, 13.2
454, 148.1, 182.1, 181.4, 15, 838.9, 884.3, 28, 15.53
457, 312.7, 0, 178.1, 8, 999.7, 822.2, 28, 25.1
460, 374.3, 0, 190.2, 6.7, 1013.2, 730.4, 28, 39.06
463, 164.6, 150.4, 181.6, 11.7, 1023.3, 728.9, 28, 18.03
466, 355.9, 141.6, 193.3, 11, 801.4, 778.4, 28, 40.87
469, 321.4, 127.9, 182.5, 11.5, 870.1, 779.7, 28, 37.27
471, 322.2, 115.6, 196, 10.4, 817.9, 813.4, 28, 31.18